Wavelength	Counts
339.8119	-55.3683
340.198	-55.3683
340.5842	-55.3683
340.9702	-116.80736
341.3563	-79.35879
341.7423	-73.50745
342.1283	-98.66821
342.5142	-96.32767
342.9001	-90.47633
343.2859	-57.70883
343.6717	-16.74946
344.0575	-68.24124
344.4432	-50.10209
344.8289	34.74233
345.2145	-12.65352
345.6001	32.40179
345.9856	11.33697
346.3711	29.47612
346.7566	62.24362
347.142	86.81925
347.5274	96.18139
347.9128	137.7259
348.2981	135.9705
348.6833	142.40697
349.0685	158.79072
349.4537	181.61094
349.8389	186.87715
350.224	183.95148
350.609	229.00679
350.994	225.49599
351.379	232.51759
351.7639	234.85813
352.1488	265.28509
352.5336	275.81751
352.9185	245.39054
353.3032	241.2946
353.6879	273.47697
354.0726	250.65675
354.4572	285.76478
354.8418	282.25398
355.2264	303.3188
355.6109	281.66884
355.9954	293.37152
356.3798	320.87282
356.7642	274.0621
357.1485	262.94456
357.5328	294.54179
357.9171	272.3067
358.3013	286.34992
358.6855	261.18916
359.0696	264.69996
359.4537	271.72157
359.8378	279.91344
360.2218	248.90134
360.6058	281.08371
360.9897	262.94456
361.3736	278.15804
361.7574	225.49599
362.1412	241.87974
362.525	247.73108
362.9087	262.35943
363.2924	219.64465
363.676	231.34733
364.0596	233.10273
364.4432	243.05001
364.8267	250.65675
365.2102	242.46487
365.5936	246.56081
365.977	229.59193
366.3603	218.47438
366.7436	227.25139
367.1269	229.00679
367.5101	296.88233
367.8933	258.26349
368.2764	182.19608
368.6595	241.2946
369.0426	219.05951
369.4256	247.73108
369.8085	252.41215
370.1915	251.82701
370.5743	244.22027
370.9572	258.26349
371.34	245.97568
371.7227	240.70947
372.1055	256.50809
372.4881	236.0284
372.8708	246.56081
373.2534	238.36893
373.6359	241.2946
374.0184	245.39054
374.4009	272.3067
374.7833	248.90134
375.1657	245.97568
375.548	267.62563
375.9303	284.00938
376.3126	251.24188
376.6948	208.5271
377.0769	265.87023
377.4591	242.46487
377.8412	238.95407
378.2232	248.90134
378.6052	230.17706
378.9872	236.0284
379.3691	240.12434
379.751	232.51759
380.1328	274.64724
380.5146	236.61353
380.8963	253.58242
381.278	245.39054
381.6597	254.75268
382.0413	248.90134
382.4229	241.87974
382.8044	251.82701
383.1859	229.00679
383.5674	275.23237
383.9488	248.90134
384.3302	239.5392
384.7115	255.92295
385.0928	245.39054
385.474	273.47697
385.8552	265.87023
386.2364	230.17706
386.6175	228.42166
386.9986	264.69996
387.3796	219.64465
387.7606	252.99728
388.1416	274.64724
388.5225	281.66884
388.9033	255.92295
389.2841	208.5271
389.6649	240.12434
390.0457	237.7838
390.4263	283.42425
390.807	248.90134
391.1876	247.14594
391.5682	248.90134
391.9487	243.05001
392.3292	238.95407
392.7096	222.57032
393.09	245.39054
393.4704	244.22027
393.8507	254.16755
394.231	261.18916
394.6112	248.90134
394.9914	282.83911
395.3715	249.48648
395.7516	259.43376
396.1317	226.08112
396.5117	271.72157
396.8917	254.75268
397.2716	239.5392
397.6515	273.47697
398.0313	264.11483
398.4111	244.22027
398.7909	270.5513
399.1706	262.35943
399.5503	258.26349
399.9299	236.61353
400.3095	260.01889
400.6891	260.01889
401.0686	262.94456
401.448	227.83652
401.8275	225.49599
402.2068	246.56081
402.5862	254.16755
402.9655	252.99728
403.3447	239.5392
403.7239	265.87023
404.1031	274.64724
404.4822	256.50809
404.8613	249.48648
405.2403	239.5392
405.6193	271.72157
405.9983	231.93246
406.3772	228.42166
406.7561	278.15804
407.1349	279.32831
407.5137	261.77429
407.8924	224.91085
408.2711	299.22286
408.6498	265.28509
409.0284	253.58242
409.4069	288.10532
409.7855	259.43376
410.164	298.63773
410.5424	254.75268
410.9208	275.23237
411.2992	247.73108
411.6775	262.94456
412.0557	293.37152
412.434	251.24188
412.8121	254.16755
413.1903	284.59451
413.5684	296.29719
413.9464	298.63773
414.3245	311.51068
414.7024	311.51068
415.0804	292.20126
415.4582	299.808
415.8361	300.97826
416.2139	265.87023
416.5916	305.65934
416.9694	299.22286
417.347	281.66884
417.7247	315.02148
418.1022	300.97826
418.4798	296.29719
418.8573	265.28509
419.2347	305.65934
419.6122	261.77429
419.9895	280.49858
420.3669	281.66884
420.7441	295.12693
421.1214	291.61612
421.4986	272.3067
421.8757	277.57291
422.2529	300.97826
422.6299	302.14853
423.007	292.20126
423.3839	304.48907
423.7609	281.08371
424.1378	271.13643
424.5146	284.00938
424.8915	266.45536
425.2682	276.40264
425.645	293.95666
426.0216	283.42425
426.3983	249.48648
426.7749	286.93505
427.1514	271.72157
427.5279	280.49858
427.9044	297.46746
428.2808	299.22286
428.6572	296.29719
429.0336	252.41215
429.4099	274.64724
429.7861	293.37152
430.1623	293.37152
430.5385	297.46746
430.9146	319.11742
431.2907	274.64724
431.6667	288.69045
432.0427	292.78639
432.4187	307.41474
432.7946	292.20126
433.1705	300.97826
433.5463	278.15804
433.9221	312.09581
434.2978	304.48907
434.6735	344.86331
435.0491	324.96876
435.4248	346.03358
435.8003	330.23496
436.1758	335.50117
436.5513	326.13902
436.9268	354.81059
437.3021	326.72416
437.6775	343.69304
438.0528	379.38621
438.4281	363.00246
438.8033	380.55648
439.1785	402.20643
439.5536	396.35509
439.9287	401.03617
440.3037	441.99554
440.6787	426.78206
441.0537	448.43201
441.4286	468.9117
441.8035	482.95492
442.1783	517.47782
442.5531	556.68179
442.9278	588.86416
443.3025	697.11393
443.6772	992.60657
444.0518	1645.0309
444.4264	3154.67643
444.8009	6308.54831
445.1754	12143.50384
445.5498	19252.29594
445.9242	27440.07501
446.2985	35430.66393
446.6728	36995.31206
447.0471	37004.08907
447.4213	36386.18764
447.7955	35193.68469
448.1696	33840.85505
448.5437	31273.28737
448.9178	30640.75759
449.2918	29176.75251
449.6657	27286.18478
450.0397	26278.58416
450.4135	25167.99996
450.7874	24701.06309
451.1612	23647.82201
451.5349	22835.65612
451.9086	21287.39175
452.2823	19598.11009
452.6559	19205.48523
453.0294	17159.85701
453.403	17131.18545
453.7764	15911.76634
454.1499	15028.79925
454.5233	13753.20728
454.8966	11445.43907
455.2699	9041.12376
455.6432	6735.69608
456.0164	4333.13617
456.3896	2676.03688
456.7627	1523.32304
457.1358	951.06206
457.5089	618.12085
457.8819	494.07246
458.2548	409.22804
458.6277	351.29978
459.0006	332.5755
459.3734	337.8417
459.7462	357.15112
460.119	337.25657
460.4917	334.3309
460.8643	318.53228
461.2369	277.57291
461.6095	289.27559
461.982	313.26608
462.3545	301.5634
462.7269	269.38103
463.0993	300.97826
463.4717	309.17014
463.844	278.74318
464.2162	302.73367
464.5884	267.0405
464.9606	276.98777
465.3327	293.95666
465.7048	295.71206
466.0769	274.64724
466.4489	286.34992
466.8208	285.76478
467.1927	275.81751
467.5646	293.37152
467.9364	274.64724
468.3082	293.95666
468.6799	280.49858
469.0516	269.96617
469.4232	257.67835
469.7948	247.73108
470.1664	268.7959
470.5379	282.25398
470.9094	279.91344
471.2808	293.95666
471.6522	286.34992
472.0235	254.16755
472.3948	261.77429
472.7661	269.38103
473.1373	282.83911
473.5084	265.28509
473.8796	256.50809
474.2506	303.3188
474.6217	254.16755
474.9927	239.5392
475.3636	272.89184
475.7345	278.74318
476.1054	266.45536
476.4762	261.18916
476.8469	277.57291
477.2177	287.52018
477.5883	275.23237
477.959	263.52969
478.3296	268.21076
478.7001	248.31621
479.0706	282.83911
479.4411	257.09322
479.8115	292.78639
480.1819	261.18916
480.5522	252.41215
480.9225	262.35943
481.2927	261.18916
481.6629	262.35943
482.033	241.87974
482.4031	272.89184
482.7732	281.08371
483.1432	279.32831
483.5132	275.81751
483.8831	283.42425
484.253	256.50809
484.6229	272.89184
484.9926	285.17965
485.3624	251.82701
485.7321	289.86072
486.1018	274.0621
486.4714	274.0621
486.841	276.40264
487.2105	275.81751
487.58	254.16755
487.9494	272.89184
488.3188	246.56081
488.6882	274.0621
489.0575	268.21076
489.4268	281.66884
489.796	281.66884
490.1652	265.87023
490.5343	282.25398
490.9034	255.33782
491.2724	244.22027
491.6414	255.92295
492.0104	291.03099
492.3793	243.63514
492.7482	255.92295
493.117	259.43376
493.4858	239.5392
493.8545	285.17965
494.2232	272.3067
494.5918	257.09322
494.9604	265.87023
495.329	276.40264
495.6975	254.16755
496.066	271.13643
496.4344	248.90134
496.8028	252.99728
497.1711	275.23237
497.5394	277.57291
497.9076	252.41215
498.2758	267.0405
498.644	256.50809
499.0121	271.72157
499.3802	272.3067
499.7482	241.87974
500.1162	239.5392
500.4841	279.91344
500.852	276.98777
501.2198	278.15804
501.5876	261.18916
501.9554	269.38103
502.3231	269.38103
502.6908	252.41215
503.0584	290.44585
503.426	260.01889
503.7935	258.84862
504.161	268.7959
504.5284	286.93505
504.8958	284.00938
505.2632	285.17965
505.6305	239.5392
505.9978	260.01889
506.365	268.21076
506.7322	252.41215
507.0993	278.74318
507.4664	309.17014
507.8334	282.83911
508.2004	274.64724
508.5674	281.66884
508.9343	289.86072
509.3012	262.94456
509.668	257.67835
510.0347	252.41215
510.4015	277.57291
510.7682	272.3067
511.1348	269.96617
511.5014	286.34992
511.8679	236.61353
512.2345	250.65675
512.6009	308.58501
512.9673	285.17965
513.3337	252.99728
513.7	300.97826
514.0663	252.99728
514.4326	240.12434
514.7987	279.91344
515.1649	241.87974
515.531	254.75268
515.8971	243.63514
516.2631	280.49858
516.629	289.86072
516.995	281.08371
517.3608	268.7959
517.7267	295.71206
518.0925	243.05001
518.4582	261.77429
518.8239	256.50809
519.1896	267.0405
519.5552	271.72157
519.9207	257.09322
520.2863	241.2946
520.6517	260.01889
521.0172	212.62304
521.3826	270.5513
521.7479	261.77429
522.1132	219.64465
522.4784	322.62822
522.8436	288.10532
523.2088	278.15804
523.5739	270.5513
523.939	248.90134
524.304	249.48648
524.669	262.35943
525.0339	264.69996
525.3988	255.33782
525.7637	261.18916
526.1285	231.34733
526.4932	276.98777
526.8579	268.7959
527.2226	273.47697
527.5872	282.25398
527.9518	257.09322
528.3163	230.17706
528.6808	283.42425
529.0453	262.35943
529.4096	254.16755
529.774	260.01889
530.1383	306.24447
530.5026	262.35943
530.8668	278.15804
531.2309	270.5513
531.5951	232.51759
531.9592	281.66884
532.3232	257.67835
532.6872	278.74318
533.0511	288.10532
533.415	292.78639
533.7789	279.91344
534.1427	226.08112
534.5064	251.24188
534.8702	250.65675
535.2338	276.98777
535.5975	281.08371
535.961	289.86072
536.3246	257.67835
536.6881	271.72157
537.0515	270.5513
537.4149	284.59451
537.7783	257.67835
538.1416	280.49858
538.5049	283.42425
538.8681	310.92554
539.2312	240.70947
539.5944	276.98777
539.9575	279.32831
540.3205	260.01889
540.6835	240.70947
541.0464	302.14853
541.4093	253.58242
541.7722	249.48648
542.135	286.93505
542.4978	243.05001
542.8605	279.32831
543.2232	249.48648
543.5858	261.77429
543.9484	278.15804
544.3109	283.42425
544.6734	254.75268
545.0359	278.15804
545.3983	284.00938
545.7606	257.09322
546.123	266.45536
546.4852	252.41215
546.8474	252.99728
547.2096	240.12434
547.5718	279.32831
547.9338	229.59193
548.2959	262.94456
548.6579	257.67835
549.0198	277.57291
549.3817	268.7959
549.7436	296.88233
550.1054	254.16755
550.4672	249.48648
550.8289	288.69045
551.1906	245.39054
551.5522	277.57291
551.9138	253.58242
552.2753	257.67835
552.6368	271.13643
552.9983	295.71206
553.3597	249.48648
553.721	262.94456
554.0823	296.88233
554.4436	278.15804
554.8048	271.72157
555.166	298.05259
555.5271	255.33782
555.8882	299.808
556.2493	289.86072
556.6102	283.42425
556.9712	282.83911
557.3321	296.88233
557.6929	292.78639
558.0538	255.33782
558.4145	248.31621
558.7752	297.46746
559.1359	276.98777
559.4965	272.3067
559.8571	248.31621
560.2177	254.75268
560.5781	281.08371
560.9386	250.07161
561.299	268.21076
561.6593	244.22027
562.0196	271.72157
562.3799	241.87974
562.7401	266.45536
563.1003	261.18916
563.4604	284.59451
563.8205	251.82701
564.1805	296.29719
564.5405	248.31621
564.9005	294.54179
565.2603	279.32831
565.6202	261.18916
565.98	272.3067
566.3398	270.5513
566.6995	262.35943
567.0591	247.73108
567.4188	268.7959
567.7783	278.15804
568.1379	256.50809
568.4973	265.28509
568.8568	285.17965
569.2162	296.88233
569.5755	241.87974
569.9348	242.46487
570.2941	279.91344
570.6533	236.61353
571.0124	273.47697
571.3715	249.48648
571.7306	250.07161
572.0896	240.70947
572.4486	265.87023
572.8075	289.86072
573.1664	274.0621
573.5253	267.62563
573.884	298.05259
574.2428	258.26349
574.6015	279.91344
574.9601	269.38103
575.3188	261.18916
575.6773	303.90393
576.0358	274.0621
576.3943	247.14594
576.7527	266.45536
577.1111	257.67835
577.4694	295.12693
577.8277	276.40264
578.186	269.38103
578.5442	274.0621
578.9023	234.273
579.2604	261.77429
579.6185	252.41215
579.9765	252.41215
580.3344	251.24188
580.6924	278.74318
581.0502	273.47697
581.408	258.26349
581.7658	269.38103
582.1236	280.49858
582.4812	286.93505
582.8389	268.7959
583.1965	247.73108
583.554	262.94456
583.9115	276.40264
584.269	219.05951
584.6264	266.45536
584.9838	298.63773
585.3411	269.38103
585.6983	250.07161
586.0556	288.69045
586.4127	275.81751
586.7699	278.15804
587.127	310.34041
587.484	248.90134
587.841	395.18483
588.1979	273.47697
588.5548	248.31621
588.9117	272.3067
589.2685	279.32831
589.6253	298.63773
589.982	266.45536
590.3386	253.58242
590.6953	271.72157
591.0518	271.13643
591.4084	251.24188
591.7648	250.65675
592.1213	271.72157
592.4777	275.81751
592.834	297.46746
593.1903	272.3067
593.5466	293.37152
593.9028	264.11483
594.2589	265.87023
594.615	282.83911
594.9711	282.25398
595.3271	261.18916
595.6831	279.32831
596.039	264.69996
596.3949	284.00938
596.7507	269.96617
597.1065	305.65934
597.4623	272.89184
597.8179	276.98777
598.1736	276.98777
598.5292	291.03099
598.8847	244.22027
599.2403	251.24188
599.5957	259.43376
599.9511	247.73108
600.3065	291.61612
600.6618	287.52018
601.0171	290.44585
601.3723	271.72157
601.7275	264.11483
602.0826	300.97826
602.4377	278.15804
602.7928	312.68094
603.1478	273.47697
603.5027	267.62563
603.8576	270.5513
604.2125	278.74318
604.5673	271.72157
604.922	262.35943
605.2767	256.50809
605.6314	251.24188
605.986	278.74318
606.3406	269.38103
606.6951	257.67835
607.0496	254.16755
607.4041	272.3067
607.7584	248.90134
608.1128	206.18657
608.4671	263.52969
608.8213	266.45536
609.1755	262.94456
609.5297	276.98777
609.8838	271.72157
610.2378	281.08371
610.5919	284.59451
610.9458	305.0742
611.2997	276.40264
611.6536	255.92295
612.0074	275.81751
612.3612	281.08371
612.715	255.33782
613.0686	290.44585
613.4223	280.49858
613.7759	248.90134
614.1294	262.35943
614.4829	288.69045
614.8364	275.81751
615.1898	271.72157
615.5431	268.7959
615.8964	258.26349
616.2497	264.69996
616.6029	256.50809
616.9561	276.40264
617.3092	254.75268
617.6623	264.69996
618.0153	279.32831
618.3683	268.21076
618.7212	244.22027
619.0741	275.81751
619.427	283.42425
619.7798	307.41474
620.1325	261.18916
620.4852	278.15804
620.8379	248.90134
621.1905	275.81751
621.543	267.62563
621.8956	275.81751
622.248	279.91344
622.6004	276.98777
622.9528	279.32831
623.3051	275.81751
623.6574	289.86072
624.0096	236.61353
624.3618	271.13643
624.714	265.28509
625.0661	291.61612
625.4181	278.15804
625.7701	280.49858
626.122	260.60402
626.4739	295.12693
626.8258	264.11483
627.1776	244.80541
627.5294	274.64724
627.8811	291.61612
628.2327	291.03099
628.5844	245.97568
628.9359	247.14594
629.2874	271.13643
629.6389	278.15804
629.9904	285.17965
630.3417	231.34733
630.6931	271.13643
631.0444	274.0621
631.3956	279.32831
631.7468	272.89184
632.0979	257.09322
632.449	236.0284
632.8001	277.57291
633.1511	268.7959
633.5021	265.28509
633.853	260.60402
634.2038	259.43376
634.5546	265.28509
634.9054	246.56081
635.2561	240.12434
635.6068	284.00938
635.9574	278.15804
636.308	260.01889
636.6585	245.39054
637.009	279.91344
637.3595	236.61353
637.7098	238.95407
638.0602	257.67835
638.4105	296.88233
638.7607	265.87023
639.1109	241.2946
639.4611	261.77429
639.8112	278.15804
640.1612	296.29719
640.5113	229.59193
640.8612	287.52018
641.2111	281.08371
641.561	298.05259
641.9108	268.21076
642.2606	285.17965
642.6103	284.00938
642.96	261.77429
643.3096	271.13643
643.6592	261.77429
644.0088	255.33782
644.3582	250.07161
644.7077	275.23237
645.0571	250.07161
645.4064	274.0621
645.7557	257.67835
646.105	300.39313
646.4542	296.88233
646.8033	302.73367
647.1524	302.14853
647.5015	268.21076
647.8505	282.25398
648.1995	272.89184
648.5484	265.28509
648.8973	269.96617
649.2461	260.01889
649.5949	258.26349
649.9436	254.16755
650.2923	281.08371
650.6409	279.32831
650.9895	257.67835
651.338	274.64724
651.6865	258.84862
652.0349	271.72157
652.3833	268.7959
652.7317	263.52969
653.08	266.45536
653.4282	236.61353
653.7764	258.26349
654.1246	246.56081
654.4727	251.24188
654.8208	280.49858
655.1688	264.11483
655.5167	262.94456
655.8647	281.66884
656.2125	260.01889
656.5603	257.09322
656.9081	245.39054
657.2558	282.25398
657.6035	264.69996
657.9512	261.18916
658.2987	261.77429
658.6463	279.91344
658.9938	262.94456
659.3412	271.13643
659.6886	296.88233
660.0359	264.11483
660.3832	268.7959
660.7305	270.5513
661.0777	265.28509
661.4248	276.98777
661.7719	271.72157
662.119	268.21076
662.466	250.07161
662.813	260.60402
663.1599	295.71206
663.5067	233.68786
663.8535	269.96617
664.2003	240.12434
664.547	255.92295
664.8937	269.38103
665.2403	272.3067
665.5869	254.16755
665.9334	263.52969
666.2799	266.45536
666.6264	263.52969
666.9727	260.60402
667.3191	265.87023
667.6654	252.99728
668.0116	282.83911
668.3578	229.00679
668.7039	271.13643
669.05	300.39313
669.3961	302.73367
669.7421	271.13643
670.088	271.72157
670.4339	240.70947
670.7798	278.74318
671.1256	272.89184
671.4714	263.52969
671.8171	273.47697
672.1628	280.49858
672.5084	259.43376
672.8539	222.57032
673.1995	285.17965
673.5449	275.23237
673.8904	250.07161
674.2357	238.95407
674.5811	262.35943
674.9263	261.77429
675.2716	296.88233
675.6167	234.85813
675.9619	265.87023
676.307	254.75268
676.652	270.5513
676.997	252.99728
677.3419	267.0405
677.6868	274.64724
678.0317	268.21076
678.3765	274.0621
678.7212	249.48648
679.0659	271.13643
679.4106	251.82701
679.7552	251.82701
680.0997	237.7838
680.4443	265.87023
680.7887	282.83911
681.1331	250.07161
681.4775	262.94456
681.8218	287.52018
682.1661	262.94456
682.5103	255.92295
682.8545	243.05001
683.1986	255.92295
683.5426	272.3067
683.8867	252.99728
684.2306	279.91344
684.5746	261.77429
684.9185	265.28509
685.2623	275.81751
685.6061	269.96617
685.9498	258.84862
686.2935	305.0742
686.6371	295.12693
686.9807	252.99728
687.3243	295.71206
687.6678	304.48907
688.0112	272.3067
688.3546	249.48648
688.6979	227.83652
689.0412	290.44585
689.3845	281.66884
689.7277	273.47697
690.0708	272.89184
690.4139	269.38103
690.757	267.0405
691.1	279.91344
691.443	284.00938
691.7859	245.39054
692.1287	306.8296
692.4716	265.28509
692.8143	287.52018
693.157	271.13643
693.4997	289.86072
693.8423	279.91344
694.1849	289.27559
694.5274	293.37152
694.8699	242.46487
695.2123	289.86072
695.5547	259.43376
695.897	244.80541
696.2393	248.90134
696.5815	294.54179
696.9237	272.3067
697.2658	233.10273
697.6079	295.12693
697.95	268.21076
698.292	270.5513
698.6339	274.64724
698.9758	282.83911
699.3176	277.57291
699.6594	248.31621
700.0012	243.63514
700.3429	263.52969
700.6845	254.16755
701.0261	256.50809
701.3677	285.17965
701.7092	278.74318
702.0506	265.28509
702.392	264.11483
702.7334	269.96617
703.0747	279.32831
703.4159	274.0621
703.7571	262.35943
704.0983	247.73108
704.4394	255.33782
704.7805	244.22027
705.1215	275.81751
705.4624	236.0284
705.8034	267.0405
706.1442	260.01889
706.485	279.32831
706.8258	273.47697
707.1665	262.94456
707.5072	293.37152
707.8478	255.33782
708.1884	243.63514
708.5289	251.24188
708.8694	279.91344
709.2098	242.46487
709.5502	275.23237
709.8905	247.73108
710.2308	264.11483
710.571	279.32831
710.9112	268.7959
711.2513	300.39313
711.5914	279.91344
711.9315	237.19867
712.2714	239.5392
712.6114	270.5513
712.9513	245.97568
713.2911	252.41215
713.6309	271.72157
713.9706	264.69996
714.3103	265.28509
714.65	269.96617
714.9896	272.3067
715.3291	275.81751
715.6686	273.47697
716.0081	258.26349
716.3475	271.72157
716.6868	257.09322
717.0261	274.64724
717.3654	273.47697
717.7046	274.0621
718.0437	280.49858
718.3828	276.40264
718.7219	268.7959
719.0609	273.47697
719.3998	310.92554
719.7387	237.7838
720.0776	270.5513
720.4164	267.0405
720.7552	251.82701
721.0939	226.66626
721.4325	249.48648
721.7711	281.66884
722.1097	271.13643
722.4482	252.41215
722.7867	268.7959
723.1251	272.3067
723.4635	266.45536
723.8018	245.97568
724.14	265.87023
724.4783	255.33782
724.8164	257.67835
725.1546	257.09322
725.4926	255.33782
725.8306	278.74318
726.1686	277.57291
726.5065	260.60402
726.8444	261.77429
727.1822	279.32831
727.52	280.49858
727.8577	313.26608
728.1954	274.64724
728.533	272.3067
728.8706	281.08371
729.2081	233.10273
729.5456	262.35943
729.883	291.03099
730.2204	253.58242
730.5578	317.36201
730.895	281.66884
731.2323	265.87023
731.5695	272.89184
731.9066	271.72157
732.2437	249.48648
732.5807	274.0621
732.9177	269.38103
733.2546	261.77429
733.5915	269.96617
733.9283	282.83911
734.2651	255.92295
734.6019	268.7959
734.9386	287.52018
735.2752	264.69996
735.6118	239.5392
735.9483	268.21076
736.2848	257.09322
736.6213	323.79849
736.9576	295.71206
737.294	251.24188
737.6303	244.22027
737.9665	226.66626
738.3027	277.57291
738.6389	238.95407
738.975	282.83911
739.311	261.77429
739.647	289.86072
739.9829	285.17965
740.3188	209.69737
740.6547	269.38103
740.9905	275.81751
741.3262	269.96617
741.6619	264.69996
741.9976	271.13643
742.3332	261.18916
742.6687	282.25398
743.0042	278.15804
743.3397	261.77429
743.6751	248.31621
744.0104	263.52969
744.3457	299.22286
744.681	246.56081
745.0162	227.83652
745.3513	257.09322
745.6864	307.99987
746.0215	241.87974
746.3565	277.57291
746.6914	286.93505
747.0263	263.52969
747.3612	240.12434
747.696	279.32831
748.0307	280.49858
748.3654	261.77429
748.7001	247.73108
749.0347	248.90134
749.3692	288.69045
749.7037	273.47697
750.0382	310.92554
750.3726	271.13643
750.707	297.46746
751.0413	275.81751
751.3755	269.96617
751.7097	255.33782
752.0439	285.17965
752.378	274.64724
752.712	259.43376
753.046	255.33782
753.38	246.56081
753.7139	272.89184
754.0478	292.78639
754.3816	255.33782
754.7153	272.3067
755.049	257.09322
755.3827	272.3067
755.7163	232.51759
756.0498	294.54179
756.3833	261.77429
756.7168	278.15804
757.0502	248.31621
757.3836	260.01889
757.7169	268.7959
758.0501	254.16755
758.3833	271.13643
758.7165	264.69996
759.0496	260.01889
759.3827	233.68786
759.7157	286.34992
760.0486	254.16755
760.3815	267.0405
760.7144	246.56081
761.0472	260.60402
761.3799	268.21076
761.7126	242.46487
762.0453	251.24188
762.3779	263.52969
762.7105	285.76478
763.043	251.24188
763.3754	299.22286
763.7078	292.20126
764.0402	283.42425
764.3725	287.52018
764.7047	269.38103
765.037	257.09322
765.3691	261.77429
765.7012	258.26349
766.0333	264.69996
766.3653	270.5513
766.6972	257.09322
767.0291	264.69996
767.361	267.62563
767.6928	288.10532
768.0245	259.43376
768.3562	271.13643
768.6879	305.0742
769.0195	254.75268
769.3511	276.98777
769.6826	265.87023
770.014	272.89184
770.3454	266.45536
770.6768	281.08371
771.0081	257.09322
771.3393	255.92295
771.6705	261.77429
772.0017	264.69996
772.3328	273.47697
772.6638	259.43376
772.9948	296.88233
773.3258	260.01889
773.6567	277.57291
773.9875	277.57291
774.3183	333.16063
774.6491	278.15804
774.9797	271.13643
775.3104	243.63514
775.641	250.65675
775.9715	262.94456
776.302	273.47697
776.6325	303.90393
776.9629	251.82701
777.2932	263.52969
777.6235	286.93505
777.9538	259.43376
778.2839	279.91344
778.6141	252.41215
778.9442	281.08371
779.2742	276.98777
779.6042	275.23237
779.9342	271.72157
780.264	278.74318
780.5939	286.93505
780.9237	258.84862
781.2534	293.37152
781.5831	272.89184
781.9127	275.81751
782.2423	291.03099
782.5719	248.90134
782.9014	236.0284
783.2308	269.96617
783.5602	287.52018
783.8895	252.41215
784.2188	255.33782
784.548	284.59451
784.8772	289.86072
785.2063	291.03099
785.5354	255.92295
785.8645	254.75268
786.1934	307.41474
786.5224	257.09322
786.8512	279.32831
787.1801	268.21076
787.5088	290.44585
787.8376	295.71206
788.1663	291.61612
788.4949	255.92295
788.8235	270.5513
789.152	270.5513
789.4805	245.97568
789.8089	277.57291
790.1372	250.07161
790.4656	252.41215
790.7938	286.93505
791.1221	268.21076
791.4502	283.42425
791.7783	269.96617
792.1064	293.95666
792.4344	271.13643
792.7624	287.52018
793.0903	254.16755
793.4182	255.33782
793.746	261.77429
794.0738	262.35943
794.4015	226.08112
794.7291	269.96617
795.0567	251.24188
795.3843	249.48648
795.7118	233.68786
796.0393	268.21076
796.3667	275.81751
796.694	261.77429
797.0213	254.16755
797.3486	272.3067
797.6758	298.63773
798.0029	281.66884
798.3301	243.63514
798.6571	260.60402
798.9841	269.96617
799.3111	282.83911
799.638	241.87974
799.9648	260.60402
800.2916	248.90134
800.6183	261.18916
800.945	265.28509
801.2717	241.87974
801.5983	251.24188
801.9248	278.74318
802.2513	254.16755
802.5777	267.0405
802.9041	294.54179
803.2305	271.13643
803.5568	240.12434
803.883	240.70947
804.2092	266.45536
804.5353	249.48648
804.8614	284.00938
805.1874	302.14853
805.5134	291.61612
805.8393	275.23237
806.1652	267.0405
806.491	256.50809
806.8168	260.01889
807.1425	261.77429
807.4682	251.82701
807.7938	236.61353
808.1194	259.43376
808.4449	243.63514
808.7704	255.33782
809.0958	281.08371
809.4212	245.97568
809.7465	254.16755
810.0718	259.43376
810.397	261.77429
810.7221	259.43376
811.0473	255.92295
811.3723	299.22286
811.6973	235.44326
812.0223	269.38103
812.3472	279.32831
812.672	275.23237
812.9968	254.75268
813.3216	281.66884
813.6463	264.11483
813.9709	254.75268
814.2955	291.61612
814.6201	256.50809
814.9446	286.34992
815.269	267.62563
815.5934	265.87023
815.9178	264.11483
816.2421	262.94456
816.5663	271.13643
816.8905	257.67835
817.2146	248.90134
817.5387	271.72157
817.8627	275.81751
818.1867	264.11483
818.5107	266.45536
818.8345	270.5513
819.1584	240.70947
819.4822	283.42425
819.8059	264.11483
820.1296	252.99728
820.4532	277.57291
820.7767	261.77429
821.1003	269.38103
821.4237	257.67835
821.7472	231.34733
822.0705	258.26349
822.3938	248.31621
822.7171	281.66884
823.0403	266.45536
823.3635	292.20126
823.6866	257.09322
824.0096	252.41215
824.3326	255.92295
824.6556	289.86072
824.9785	271.13643
825.3014	268.7959
825.6242	260.60402
825.9469	256.50809
826.2696	219.64465
826.5922	301.5634
826.9148	269.38103
827.2374	261.77429
827.5599	250.07161
827.8823	274.0621
828.2047	250.65675
828.527	268.21076
828.8493	268.7959
829.1716	274.0621
829.4937	296.88233
829.8159	301.5634
830.1379	279.32831
830.46	246.56081
830.7819	257.67835
831.1039	235.44326
831.4257	288.69045
831.7476	271.13643
832.0693	251.24188
832.391	303.3188
832.7127	250.65675
833.0343	257.67835
833.3559	260.60402
833.6774	264.11483
833.9988	255.33782
834.3202	255.33782
834.6416	292.78639
834.9629	292.78639
835.2842	273.47697
835.6054	284.59451
835.9265	277.57291
836.2476	245.97568
836.5686	252.41215
836.8896	253.58242
837.2106	241.87974
837.5315	293.95666
837.8523	264.11483
838.1731	252.99728
838.4938	264.11483
838.8145	282.25398
839.1351	276.40264
839.4557	265.87023
839.7762	268.21076
840.0967	261.77429
840.4171	292.78639
840.7375	269.38103
841.0578	266.45536
841.3781	250.65675
841.6983	237.7838
842.0185	252.99728
842.3386	257.67835
842.6586	268.7959
842.9786	267.62563
843.2986	233.10273
843.6185	281.08371
843.9383	273.47697
844.2581	241.87974
844.5779	284.00938
844.8976	266.45536
845.2172	274.64724
845.5368	251.82701
845.8563	281.08371
846.1758	281.08371
846.4953	258.84862
846.8147	278.15804
847.134	245.97568
847.4533	288.69045
847.7725	244.80541
848.0917	252.41215
848.4108	256.50809
848.7299	255.92295
849.0489	249.48648
849.3678	217.88925
849.6868	265.28509
850.0056	272.89184
850.3244	261.77429
850.6432	272.3067
850.9619	237.19867
851.2805	263.52969
851.5991	268.21076
851.9177	265.87023
852.2362	304.48907
852.5546	295.71206
852.873	257.09322
853.1914	267.62563
853.5097	274.64724
853.8279	257.67835
854.1461	282.25398
854.4642	279.32831
854.7823	299.808
855.1003	281.66884
855.4183	287.52018
855.7362	250.65675
856.0541	245.97568
856.3719	274.64724
856.6897	269.96617
857.0074	259.43376
857.325	239.5392
857.6427	250.07161
857.9602	252.99728
858.2777	275.81751
858.5952	278.15804
858.9126	257.67835
859.2299	262.94456
859.5472	240.70947
859.8645	252.99728
860.1816	258.84862
860.4988	268.21076
860.8159	282.83911
861.1329	224.32572
861.4499	286.34992
861.7668	278.74318
862.0837	255.33782
862.4005	278.15804
862.7173	291.61612
863.034	236.0284
863.3507	271.13643
863.6673	252.41215
863.9839	261.18916
864.3004	254.16755
864.6168	269.38103
864.9332	260.01889
865.2496	275.23237
865.5659	286.34992
865.8821	298.63773
866.1983	303.3188
866.5145	267.62563
866.8306	254.75268
867.1466	248.31621
867.4626	244.80541
867.7785	267.0405
868.0944	263.52969
868.4102	264.69996
868.726	265.87023
869.0417	276.40264
869.3574	267.62563
869.673	298.05259
869.9886	289.86072
870.3041	261.77429
870.6195	282.25398
870.935	245.97568
871.2503	262.35943
871.5656	275.23237
871.8809	269.96617
872.1961	277.57291
872.5112	270.5513
872.8263	260.60402
873.1413	244.22027
873.4563	285.17965
873.7713	303.3188
874.0861	277.57291
874.401	260.01889
874.7157	269.96617
875.0305	243.63514
875.3451	265.28509
875.6597	282.83911
875.9743	280.49858
876.2888	281.66884
876.6033	279.32831
876.9177	250.07161
877.232	267.62563
877.5463	254.75268
877.8606	279.32831
878.1748	248.31621
878.4889	319.11742
878.803	243.63514
879.1171	264.11483
879.431	248.31621
879.745	272.89184
880.0589	263.52969
880.3727	236.0284
880.6865	292.78639
881.0002	254.75268
881.3138	278.74318
881.6275	284.00938
881.941	281.66884
882.2545	248.31621
882.568	275.23237
882.8814	273.47697
883.1947	244.80541
883.508	243.05001
883.8213	257.09322
884.1345	282.83911
884.4476	231.93246
884.7607	253.58242
885.0737	286.93505
885.3867	249.48648
885.6996	268.21076
886.0125	259.43376
886.3253	297.46746
886.6381	271.72157
886.9508	264.69996
887.2635	292.20126
887.5761	274.64724
887.8886	315.02148
888.2012	283.42425
888.5136	284.59451
888.826	225.49599
889.1383	248.31621
889.4506	248.31621
889.7629	271.72157
890.0751	306.8296
890.3872	274.64724
890.6993	292.20126
891.0113	265.28509
891.3233	254.16755
891.6352	257.09322
891.9471	262.35943
892.2589	275.81751
892.5706	275.23237
892.8823	269.38103
893.194	262.35943
893.5056	226.66626
893.8171	268.7959
894.1286	266.45536
894.4401	241.87974
894.7515	237.7838
895.0628	256.50809
895.3741	276.40264
895.6853	271.72157
895.9965	268.7959
896.3076	253.58242
896.6187	262.94456
896.9297	262.94456
897.2407	265.87023
897.5516	263.52969
897.8624	266.45536
898.1732	238.95407
898.484	264.11483
898.7947	254.75268
899.1053	276.98777
899.4159	247.73108
899.7264	304.48907
900.0369	260.01889
900.3474	288.10532
900.6577	261.77429
900.9681	275.81751
901.2783	258.84862
901.5886	241.2946
901.8987	263.52969
902.2088	267.62563
902.5189	265.87023
902.8289	261.77429
903.1388	278.15804
903.4487	248.31621
903.7586	254.16755
904.0684	266.45536
904.3781	279.32831
904.6878	282.83911
904.9974	268.7959
905.307	254.75268
905.6165	280.49858
905.926	266.45536
906.2354	276.98777
906.5448	270.5513
906.8541	255.33782
907.1633	290.44585
907.4725	278.74318
907.7817	282.25398
908.0908	257.67835
908.3998	290.44585
908.7088	257.09322
909.0178	264.11483
909.3266	260.01889
909.6355	260.60402
909.9442	260.01889
910.253	242.46487
910.5616	279.91344
910.8702	286.34992
911.1788	263.52969
911.4873	281.66884
911.7958	258.26349
912.1042	261.18916
912.4125	270.5513
912.7208	276.98777
913.029	261.77429
913.3372	265.28509
913.6454	287.52018
913.9534	268.21076
914.2615	255.92295
914.5694	242.46487
914.8774	276.40264
915.1852	255.92295
915.493	301.5634
915.8008	251.82701
916.1085	294.54179
916.4161	248.31621
916.7237	279.91344
917.0313	257.09322
917.3388	238.36893
917.6462	247.14594
917.9536	251.24188
918.2609	260.60402
918.5682	255.92295
918.8754	287.52018
919.1826	252.99728
919.4897	250.07161
919.7967	274.0621
920.1037	299.22286
920.4107	278.15804
920.7176	271.72157
921.0244	253.58242
921.3312	271.72157
921.6379	291.03099
921.9446	274.64724
922.2513	276.40264
922.5578	264.11483
922.8644	254.16755
923.1708	282.83911
923.4772	277.57291
923.7836	275.81751
924.0899	291.03099
924.3961	271.72157
924.7023	272.89184
925.0085	258.84862
925.3146	270.5513
925.6206	267.62563
925.9266	263.52969
926.2325	238.36893
926.5384	264.11483
926.8442	265.87023
927.15	279.91344
927.4557	242.46487
927.7613	280.49858
928.067	252.99728
928.3725	270.5513
928.678	251.24188
928.9834	293.95666
929.2888	258.84862
929.5942	284.00938
929.8994	264.11483
930.2047	254.75268
930.5098	240.70947
930.815	258.26349
931.12	233.68786
931.425	251.24188
931.73	266.45536
932.0349	232.51759
932.3397	267.62563
932.6445	282.25398
932.9493	252.41215
933.254	285.17965
933.5586	270.5513
933.8632	269.96617
934.1677	271.72157
934.4722	288.10532
934.7766	279.32831
935.0809	285.17965
935.3852	265.87023
935.6895	281.66884
935.9937	316.19175
936.2978	276.98777
936.6019	267.62563
936.906	244.22027
937.2099	239.5392
937.5139	274.0621
937.8177	259.43376
938.1216	268.21076
938.4253	279.91344
938.729	262.94456
939.0327	293.95666
939.3363	253.58242
939.6398	274.0621
939.9433	267.62563
940.2468	274.64724
940.5501	252.99728
940.8535	269.38103
941.1568	290.44585
941.46	263.52969
941.7631	278.15804
942.0663	266.45536
942.3693	286.93505
942.6723	267.0405
942.9753	261.18916
943.2782	280.49858
943.581	263.52969
943.8838	285.17965
944.1865	278.15804
944.4892	271.72157
944.7918	229.59193
945.0944	262.94456
945.3969	268.7959
945.6994	268.7959
946.0018	273.47697
946.3041	290.44585
946.6064	255.92295
946.9087	270.5513
947.2109	270.5513
947.513	243.63514
947.8151	267.62563
948.1171	240.12434
948.4191	244.22027
948.721	268.21076
949.0229	268.21076
949.3247	268.21076
949.6264	266.45536
949.9281	234.273
950.2298	259.43376
950.5314	261.18916
950.8329	292.20126
951.1344	278.74318
951.4358	236.61353
951.7372	274.0621
952.0385	272.89184
952.3397	267.62563
952.641	280.49858
952.9421	267.62563
953.2432	260.60402
953.5442	264.69996
953.8452	279.32831
954.1462	280.49858
954.4471	268.7959
954.7479	270.5513
955.0486	282.83911
955.3494	268.7959
955.65	268.7959
955.9506	243.63514
956.2512	250.65675
956.5517	238.95407
956.8521	281.08371
957.1525	271.13643
957.4528	243.63514
957.7531	270.5513
958.0534	258.84862
958.3535	279.91344
958.6536	262.94456
958.9537	262.94456
959.2537	291.03099
959.5537	253.58242
959.8535	271.13643
960.1534	261.77429
960.4532	245.39054
960.7529	263.52969
961.0526	264.69996
961.3522	249.48648
961.6518	269.38103
961.9513	251.82701
962.2507	240.70947
962.5501	274.0621
962.8495	237.7838
963.1488	278.15804
963.448	272.89184
963.7472	223.74059
964.0463	267.0405
964.3454	264.11483
964.6444	285.17965
964.9434	261.18916
965.2423	243.05001
965.5412	269.38103
965.84	260.60402
966.1387	249.48648
966.4374	277.57291
966.736	264.69996
967.0346	277.57291
967.3331	281.66884
967.6316	254.75268
967.93	270.5513
968.2284	274.0621
968.5267	275.81751
968.8249	248.90134
969.1231	268.7959
969.4213	278.15804
969.7194	256.50809
970.0174	234.85813
970.3154	275.23237
970.6133	265.28509
970.9111	271.13643
971.2089	287.52018
971.5067	260.60402
971.8044	272.3067
972.102	259.43376
972.3996	268.7959
972.6972	289.27559
972.9947	269.96617
973.2921	247.73108
973.5894	267.0405
973.8868	272.3067
974.184	291.03099
974.4812	212.62304
974.7784	261.18916
975.0755	268.21076
975.3725	245.97568
975.6695	254.16755
975.9664	244.22027
976.2633	258.84862
976.5601	250.07161
976.8569	264.69996
977.1536	252.41215
977.4502	280.49858
977.7468	281.66884
978.0434	260.01889
978.3399	281.08371
978.6363	264.11483
978.9327	271.72157
979.229	278.15804
979.5253	238.36893
979.8215	281.08371
980.1176	260.60402
980.4137	237.19867
980.7098	278.15804
981.0058	240.70947
981.3017	267.62563
981.5976	254.16755
981.8934	234.273
982.1892	252.41215
982.4849	281.66884
982.7805	257.09322
983.0761	271.13643
983.3717	276.40264
983.6672	310.92554
983.9626	292.20126
984.258	288.69045
984.5533	281.08371
984.8486	252.99728
985.1438	295.71206
985.439	257.67835
985.7341	244.22027
986.0291	259.43376
986.3241	269.96617
986.619	271.13643
986.9139	278.74318
987.2087	263.52969
987.5035	274.64724
987.7982	272.89184
988.0929	245.97568
988.3875	271.13643
988.6821	237.7838
988.9765	285.17965
989.271	294.54179
989.5654	285.76478
989.8597	269.38103
990.154	265.87023
990.4482	269.38103
990.7423	250.07161
991.0365	272.3067
991.3305	252.41215
991.6245	279.91344
991.9184	261.18916
992.2123	253.58242
992.5061	265.28509
992.7999	252.99728
993.0936	275.23237
993.3873	260.01889
993.6809	234.273
993.9745	271.13643
994.2679	279.91344
994.5614	271.72157
994.8548	274.64724
995.1481	265.87023
995.4414	277.57291
995.7346	275.81751
996.0277	240.12434
996.3208	241.2946
996.6139	265.28509
996.9069	280.49858
997.1998	274.64724
997.4927	278.74318
997.7855	286.34992
998.0783	289.27559
998.371	283.42425
998.6637	245.97568
998.9563	292.20126
999.2488	252.41215
999.5413	303.3188
999.8338	281.08371
1000.1261	289.86072
1000.4185	272.3067
1000.7107	275.23237
1001.0029	276.98777
1001.2951	257.09322
1001.5872	259.43376
1001.8792	261.77429
1002.1712	268.7959
1002.4632	254.75268
1002.755	245.97568
1003.0469	257.67835
1003.3386	286.34992
1003.6303	272.89184
1003.922	251.82701
1004.2136	230.76219
1004.5051	269.38103
1004.7966	254.16755
1005.0881	288.69045
1005.3794	307.41474
1005.6708	243.05001
1005.962	229.59193
1006.2532	241.87974
1006.5444	280.49858
1006.8355	309.75527
1007.1265	269.96617
1007.4175	270.5513
1007.7084	257.67835
1007.9993	272.89184
1008.2901	265.28509
1008.5809	272.89184
1008.8716	282.25398
1009.1622	270.5513
1009.4528	242.46487
1009.7434	263.52969
1010.0338	245.97568
1010.3243	278.74318
1010.6146	250.07161
1010.9049	244.22027
1011.1952	261.77429
1011.4854	268.21076
1011.7755	291.61612
1012.0656	243.63514
1012.3557	279.32831
1012.6456	244.80541
1012.9355	309.17014
1013.2254	275.23237
1013.5152	260.60402
1013.805	251.82701
1014.0947	263.52969
1014.3843	265.87023
1014.6739	254.16755
1014.9634	306.8296
1015.2529	250.65675
1015.5423	255.92295
1015.8317	272.3067
1016.121	260.60402
1016.4102	267.62563
1016.6994	267.0405
1016.9885	271.13643
1017.2776	274.64724
1017.5666	278.15804
1017.8556	252.41215
1018.1445	283.42425
1018.4333	266.45536
1018.7221	252.99728
1019.0109	278.15804
1019.2996	275.23237
1019.5882	255.33782
1019.8768	262.94456
1020.1653	259.43376
1020.4537	263.52969
1020.7421	258.26349
1021.0305	219.05951
1021.3188	288.69045
1021.607	247.73108
1021.8952	258.26349
1022.1833	270.5513
1022.4714	256.50809
1022.7594	297.46746
1023.0473	259.43376
1023.3352	251.82701
1023.6231	261.77429
1023.9108	255.92295
1024.1986	278.15804
1024.4862	269.38103
1024.7738	266.45536
1025.0614	261.18916
1025.3489	253.58242
1025.6363	244.22027
1025.9237	267.0405
1026.2111	321.45795
1026.4983	254.16755
1026.7855	272.3067
1027.0727	282.83911
1027.3598	264.69996
1027.6469	288.69045
1027.9339	269.38103
1028.2208	288.69045
1028.5077	247.73108
1028.7945	289.86072
1029.0813	264.69996
1029.368	259.43376
1029.6546	264.69996
1029.9412	277.57291
1030.2278	277.57291
1030.5142	260.01889
1030.8007	270.5513
1031.087	292.78639
1031.3733	294.54179
1031.6596	268.21076
1031.9458	289.86072
1032.232	293.37152
1032.518	261.77429
1032.8041	261.77429
1033.09	261.77429
