Wavelength	Counts
339.8119	-55.03916
340.198	-55.03916
340.5842	-55.03916
340.9702	-118.23362
341.3563	-125.84037
341.7423	-94.24313
342.1283	-98.9242
342.5142	-90.1472
342.9001	-72.59318
343.2859	-67.32697
343.6717	-79.02965
344.0575	-59.72023
344.4432	-25.78246
344.8289	2.8891
345.2145	-0.03657
345.6001	31.56066
345.9856	16.93231
346.3711	48.52955
346.7566	62.57276
347.142	97.09566
347.5274	118.74562
347.9128	115.23481
348.2981	126.93749
348.6833	155.60905
349.0685	192.47249
349.4537	157.36446
349.8389	162.04553
350.224	229.92106
350.609	236.94267
350.994	198.90896
351.379	235.18727
351.7639	249.81562
352.1488	219.97379
352.5336	263.85883
352.9185	225.82513
353.3032	269.71017
353.6879	270.88044
354.0726	281.41285
354.4572	267.36963
354.8418	276.73178
355.2264	272.63584
355.6109	309.49928
355.9954	281.41285
356.3798	308.32901
356.7642	296.62633
357.1485	279.07231
357.5328	281.41285
357.9171	275.56151
358.3013	271.46557
358.6855	300.72227
359.0696	263.85883
359.4537	286.09392
359.8378	284.92365
360.2218	270.88044
360.6058	263.2737
360.9897	293.11553
361.3736	252.74129
361.7574	229.92106
362.1412	250.40075
362.525	287.84932
362.9087	290.77499
363.2924	270.2953
363.676	272.05071
364.0596	227.58053
364.4432	243.96428
364.8267	222.31432
365.2102	248.64535
365.5936	221.72919
365.977	219.97379
366.3603	273.22097
366.7436	231.67646
367.1269	244.54941
367.5101	220.55892
367.8933	224.65486
368.2764	234.017
368.6595	226.41026
369.0426	211.19678
369.4256	241.62374
369.8085	253.32642
370.1915	248.06021
370.5743	233.43187
370.9572	265.0291
371.34	226.41026
371.7227	222.31432
372.1055	271.46557
372.4881	265.0291
372.8708	228.16566
373.2534	249.23048
373.6359	262.10343
374.0184	228.16566
374.4009	236.94267
374.7833	224.06972
375.1657	211.19678
375.548	218.21838
375.9303	260.34803
376.3126	284.33852
376.6948	250.98588
377.0769	253.32642
377.4591	229.92106
377.8412	267.36963
378.2232	242.79401
378.6052	245.71968
378.9872	231.67646
379.3691	236.94267
379.751	232.84673
380.1328	248.06021
380.5146	232.84673
380.8963	214.70758
381.278	265.61423
381.6597	222.31432
382.0413	234.60213
382.4229	256.25209
382.8044	247.47508
383.1859	240.45347
383.5674	252.15615
383.9488	246.88995
384.3302	239.86834
384.7115	257.42236
385.0928	266.19937
385.474	245.71968
385.8552	240.45347
386.2364	270.2953
386.6175	243.96428
386.9986	215.87785
387.3796	203.59004
387.7606	245.71968
388.1416	261.5183
388.5225	262.68856
388.9033	256.83722
389.2841	270.2953
389.6649	239.86834
390.0457	280.24258
390.4263	242.20888
390.807	235.18727
391.1876	260.34803
391.5682	219.38865
391.9487	246.88995
392.3292	261.5183
392.7096	269.12504
393.09	260.34803
393.4704	253.91155
393.8507	224.06972
394.231	282.58312
394.6112	251.57102
394.9914	259.17776
395.3715	236.94267
395.7516	283.75338
396.1317	256.25209
396.5117	243.96428
396.8917	265.0291
397.2716	229.92106
397.6515	235.7724
398.0313	246.88995
398.4111	276.14664
398.7909	274.39124
399.1706	265.0291
399.5503	254.49669
399.9299	267.36963
400.3095	244.54941
400.6891	225.23999
401.0686	258.00749
401.448	243.96428
401.8275	252.15615
402.2068	252.74129
402.5862	257.42236
402.9655	255.08182
403.3447	249.81562
403.7239	277.31691
404.1031	253.91155
404.4822	258.59263
404.8613	260.34803
405.2403	275.56151
405.6193	255.08182
405.9983	270.2953
406.3772	256.83722
406.7561	261.5183
407.1349	271.46557
407.5137	259.17776
407.8924	276.14664
408.2711	256.25209
408.6498	279.07231
409.0284	259.76289
409.4069	294.87093
409.7855	232.2616
410.164	262.10343
410.5424	253.32642
410.9208	248.06021
411.2992	274.39124
411.6775	298.96687
412.0557	267.95477
412.434	280.82771
412.8121	290.77499
413.1903	300.72227
413.5684	267.95477
413.9464	264.44396
414.3245	316.52088
414.7024	259.76289
415.0804	304.81821
415.4582	277.90205
415.8361	273.80611
416.2139	286.67905
416.5916	306.57361
416.9694	297.21146
417.347	287.84932
417.7247	264.44396
418.1022	289.60472
418.4798	270.2953
418.8573	298.96687
419.2347	311.25468
419.6122	285.50879
419.9895	305.98847
420.3669	299.552
420.7441	251.57102
421.1214	290.77499
421.4986	249.81562
421.8757	266.7845
422.2529	246.30481
422.6299	279.07231
423.007	287.84932
423.3839	285.50879
423.7609	275.56151
424.1378	291.94526
424.5146	277.31691
424.8915	283.75338
425.2682	304.23307
425.645	313.01008
426.0216	248.06021
426.3983	304.23307
426.7749	283.75338
427.1514	269.71017
427.5279	290.18986
427.9044	281.41285
428.2808	249.23048
428.6572	283.75338
429.0336	266.7845
429.4099	303.64794
429.7861	290.77499
430.1623	307.74388
430.5385	295.45606
430.9146	273.80611
431.2907	325.29789
431.6667	285.50879
432.0427	306.57361
432.4187	298.96687
432.7946	312.42495
433.1705	310.08441
433.5463	353.96946
433.9221	326.46816
434.2978	314.18035
434.6735	345.19245
435.0491	327.63843
435.4248	331.73437
435.8003	338.17084
436.1758	329.39383
436.5513	370.93834
436.9268	348.11812
437.3021	369.76807
437.6775	358.06539
438.0528	424.18553
438.4281	375.61941
438.8033	425.94093
439.1785	461.04896
439.5536	441.73955
439.9287	476.26245
440.3037	515.46642
440.6787	501.42321
441.0537	539.45691
441.4286	579.24602
441.8035	683.39986
442.1783	771.75508
442.5531	953.1466
442.9278	1294.27968
443.3025	1954.89588
443.6772	3059.04361
444.0518	5390.80231
444.4264	9470.9412
444.8009	15479.09638
445.1754	24135.56771
445.5498	31256.64763
445.9242	37874.51236
446.2985	42248.97361
446.6728	40174.67383
447.0471	38890.88999
447.4213	38024.89178
447.7955	36748.71468
448.1696	35502.37941
448.5437	33026.09263
448.9178	32358.45481
449.2918	30654.54481
449.6657	28634.07736
450.0397	27817.81553
450.4135	26685.58138
450.7874	26044.27459
451.1612	24889.80535
451.5349	24107.48129
451.9086	22456.81847
452.2823	20619.49794
452.6559	20105.75035
453.0294	18120.97606
453.403	17917.93459
453.7764	16806.76526
454.1499	15781.02548
454.5233	14625.38597
454.8966	12482.62553
455.2699	10299.49084
455.6432	7940.81597
456.0164	5380.85504
456.3896	3643.5924
456.7627	2257.41013
457.1358	1390.82678
457.5089	959.58307
457.8819	698.02821
458.2548	574.56495
458.6277	467.48544
459.0006	375.61941
459.3734	407.21664
459.7462	373.27888
460.119	346.36271
460.4917	358.65053
460.8643	312.42495
461.2369	310.08441
461.6095	279.07231
461.982	317.10602
462.3545	322.37222
462.7269	331.73437
463.0993	333.48977
463.4717	289.60472
463.844	285.50879
464.2162	313.01008
464.5884	294.87093
464.9606	296.0412
465.3327	281.99798
465.7048	281.41285
466.0769	311.25468
466.4489	305.98847
466.8208	296.0412
467.1927	256.25209
467.5646	288.43446
467.9364	300.72227
468.3082	286.67905
468.6799	296.0412
469.0516	281.99798
469.4232	270.88044
469.7948	260.93316
470.1664	283.75338
470.5379	271.46557
470.9094	290.18986
471.2808	295.45606
471.6522	280.82771
472.0235	262.68856
472.3948	273.80611
472.7661	276.14664
473.1373	261.5183
473.5084	256.83722
473.8796	294.87093
474.2506	281.41285
474.6217	255.08182
474.9927	265.0291
475.3636	277.31691
475.7345	237.5278
476.1054	265.61423
476.4762	288.43446
476.8469	241.03861
477.2177	266.7845
477.5883	245.71968
477.959	262.68856
478.3296	262.10343
478.7001	289.60472
479.0706	288.43446
479.4411	267.95477
479.8115	254.49669
480.1819	254.49669
480.5522	259.76289
480.9225	268.5399
481.2927	278.48718
481.6629	277.90205
482.033	248.06021
482.4031	288.43446
482.7732	270.88044
483.1432	273.22097
483.5132	294.87093
483.8831	280.24258
484.253	248.06021
484.6229	252.74129
484.9926	251.57102
485.3624	285.50879
485.7321	258.00749
486.1018	262.68856
486.4714	276.14664
486.841	271.46557
487.2105	256.83722
487.58	234.60213
487.9494	270.88044
488.3188	256.83722
488.6882	274.39124
489.0575	243.37914
489.4268	246.30481
489.796	240.45347
490.1652	273.80611
490.5343	229.33593
490.9034	259.76289
491.2724	287.26419
491.6414	280.82771
492.0104	223.48459
492.3793	300.13713
492.7482	269.12504
493.117	250.40075
493.4858	272.05071
493.8545	265.0291
494.2232	260.93316
494.5918	262.68856
494.9604	268.5399
495.329	250.40075
495.6975	257.42236
496.066	260.93316
496.4344	229.33593
496.8028	287.26419
497.1711	248.64535
497.5394	257.42236
497.9076	273.22097
498.2758	239.28321
498.644	247.47508
499.0121	254.49669
499.3802	270.88044
499.7482	263.85883
500.1162	243.37914
500.4841	258.59263
500.852	274.39124
501.2198	253.91155
501.5876	262.68856
501.9554	266.7845
502.3231	282.58312
502.6908	274.97638
503.0584	281.99798
503.426	231.67646
503.7935	243.37914
504.161	243.96428
504.5284	259.17776
504.8958	263.85883
505.2632	263.2737
505.6305	243.96428
505.9978	279.65745
506.365	267.95477
506.7322	259.76289
507.0993	249.81562
507.4664	283.16825
507.8334	268.5399
508.2004	262.10343
508.5674	288.43446
508.9343	252.74129
509.3012	253.91155
509.668	267.36963
510.0347	279.07231
510.4015	247.47508
510.7682	230.5062
511.1348	239.28321
511.5014	259.76289
511.8679	269.12504
512.2345	279.07231
512.6009	275.56151
512.9673	241.62374
513.3337	283.16825
513.7	243.96428
514.0663	243.96428
514.4326	270.88044
514.7987	253.91155
515.1649	286.09392
515.531	231.67646
515.8971	283.75338
516.2631	250.98588
516.629	245.13455
516.995	250.98588
517.3608	267.36963
517.7267	292.53039
518.0925	290.18986
518.4582	227.58053
518.8239	262.68856
519.1896	265.0291
519.5552	274.97638
519.9207	234.60213
520.2863	294.2858
520.6517	277.90205
521.0172	268.5399
521.3826	261.5183
521.7479	274.39124
522.1132	287.26419
522.4784	280.82771
522.8436	266.19937
523.2088	270.88044
523.5739	269.12504
523.939	248.06021
524.304	286.09392
524.669	279.07231
525.0339	226.99539
525.3988	279.65745
525.7637	266.7845
526.1285	289.60472
526.4932	264.44396
526.8579	260.34803
527.2226	267.36963
527.5872	246.88995
527.9518	248.06021
528.3163	286.09392
528.6808	273.22097
529.0453	275.56151
529.4096	272.63584
529.774	270.88044
530.1383	299.552
530.5026	248.06021
530.8668	242.20888
531.2309	250.98588
531.5951	245.13455
531.9592	242.79401
532.3232	260.34803
532.6872	273.22097
533.0511	285.50879
533.415	258.59263
533.7789	287.26419
534.1427	259.76289
534.5064	281.99798
534.8702	245.71968
535.2338	247.47508
535.5975	248.06021
535.961	272.05071
536.3246	262.68856
536.6881	265.0291
537.0515	263.2737
537.4149	263.85883
537.7783	262.68856
538.1416	272.63584
538.5049	262.10343
538.8681	221.72919
539.2312	248.06021
539.5944	258.00749
539.9575	279.65745
540.3205	285.50879
540.6835	258.00749
541.0464	284.92365
541.4093	274.39124
541.7722	270.88044
542.135	284.33852
542.4978	243.96428
542.8605	260.34803
543.2232	280.24258
543.5858	268.5399
543.9484	247.47508
544.3109	271.46557
544.6734	293.11553
545.0359	255.66696
545.3983	246.88995
545.7606	252.74129
546.123	255.08182
546.4852	250.40075
546.8474	236.35754
547.2096	277.90205
547.5718	263.85883
547.9338	260.93316
548.2959	265.61423
548.6579	261.5183
549.0198	287.26419
549.3817	269.71017
549.7436	269.12504
550.1054	270.2953
550.4672	254.49669
550.8289	232.84673
551.1906	246.88995
551.5522	247.47508
551.9138	259.17776
552.2753	252.74129
552.6368	236.94267
552.9983	300.72227
553.3597	293.11553
553.721	277.31691
554.0823	274.39124
554.4436	255.08182
554.8048	253.91155
555.166	245.71968
555.5271	233.43187
555.8882	250.98588
556.2493	254.49669
556.6102	258.59263
556.9712	270.88044
557.3321	259.76289
557.6929	269.12504
558.0538	256.83722
558.4145	231.67646
558.7752	255.66696
559.1359	266.7845
559.4965	287.26419
559.8571	287.26419
560.2177	269.12504
560.5781	283.16825
560.9386	277.90205
561.299	259.76289
561.6593	259.17776
562.0196	256.83722
562.3799	261.5183
562.7401	247.47508
563.1003	239.28321
563.4604	238.11294
563.8205	289.60472
564.1805	284.92365
564.5405	262.10343
564.9005	266.19937
565.2603	254.49669
565.6202	273.22097
565.98	245.71968
566.3398	273.80611
566.6995	234.017
567.0591	275.56151
567.4188	259.17776
567.7783	259.76289
568.1379	242.79401
568.4973	252.15615
568.8568	262.10343
569.2162	262.10343
569.5755	268.5399
569.9348	276.14664
570.2941	256.25209
570.6533	229.33593
571.0124	239.86834
571.3715	258.00749
571.7306	262.10343
572.0896	264.44396
572.4486	245.13455
572.8075	253.32642
573.1664	270.2953
573.5253	298.96687
573.884	301.3074
574.2428	271.46557
574.6015	251.57102
574.9601	266.7845
575.3188	229.92106
575.6773	274.39124
576.0358	265.61423
576.3943	267.95477
576.7527	249.23048
577.1111	266.19937
577.4694	240.45347
577.8277	266.7845
578.186	258.00749
578.5442	219.38865
578.9023	255.66696
579.2604	253.32642
579.6185	258.59263
579.9765	275.56151
580.3344	254.49669
580.6924	300.72227
581.0502	290.18986
581.408	269.12504
581.7658	262.10343
582.1236	269.12504
582.4812	242.79401
582.8389	287.84932
583.1965	284.33852
583.554	261.5183
583.9115	266.7845
584.269	233.43187
584.6264	241.03861
584.9838	265.0291
585.3411	253.91155
585.6983	261.5183
586.0556	293.70066
586.4127	272.63584
586.7699	268.5399
587.127	269.12504
587.484	256.83722
587.841	349.87352
588.1979	269.12504
588.5548	273.22097
588.9117	245.13455
589.2685	238.11294
589.6253	265.0291
589.982	238.11294
590.3386	285.50879
590.6953	258.59263
591.0518	274.39124
591.4084	273.22097
591.7648	249.23048
592.1213	263.85883
592.4777	275.56151
592.834	260.34803
593.1903	284.92365
593.5466	239.86834
593.9028	250.40075
594.2589	268.5399
594.615	243.96428
594.9711	241.03861
595.3271	274.39124
595.6831	252.74129
596.039	266.19937
596.3949	243.37914
596.7507	300.13713
597.1065	265.0291
597.4623	236.35754
597.8179	283.16825
598.1736	279.07231
598.5292	284.92365
598.8847	266.19937
599.2403	293.11553
599.5957	259.76289
599.9511	263.2737
600.3065	269.12504
600.6618	245.13455
601.0171	249.81562
601.3723	250.40075
601.7275	221.14405
602.0826	254.49669
602.4377	243.96428
602.7928	231.09133
603.1478	248.64535
603.5027	244.54941
603.8576	255.66696
604.2125	296.62633
604.5673	254.49669
604.922	264.44396
605.2767	242.79401
605.6314	243.96428
605.986	273.22097
606.3406	245.13455
606.6951	259.76289
607.0496	247.47508
607.4041	262.68856
607.7584	275.56151
608.1128	250.40075
608.4671	253.32642
608.8213	247.47508
609.1755	273.22097
609.5297	279.07231
609.8838	281.99798
610.2378	268.5399
610.5919	262.68856
610.9458	265.61423
611.2997	271.46557
611.6536	258.00749
612.0074	264.44396
612.3612	283.16825
612.715	287.84932
613.0686	255.66696
613.4223	292.53039
613.7759	248.06021
614.1294	260.34803
614.4829	246.88995
614.8364	246.88995
615.1898	279.07231
615.5431	249.81562
615.8964	271.46557
616.2497	258.59263
616.6029	274.39124
616.9561	273.22097
617.3092	269.12504
617.6623	291.94526
618.0153	273.80611
618.3683	250.98588
618.7212	295.45606
619.0741	285.50879
619.427	277.90205
619.7798	254.49669
620.1325	297.21146
620.4852	254.49669
620.8379	246.88995
621.1905	279.07231
621.543	267.95477
621.8956	244.54941
622.248	274.39124
622.6004	269.71017
622.9528	261.5183
623.3051	266.7845
623.6574	242.20888
624.0096	258.00749
624.3618	255.66696
624.714	281.41285
625.0661	287.84932
625.4181	249.23048
625.7701	291.94526
626.122	257.42236
626.4739	273.22097
626.8258	241.62374
627.1776	274.97638
627.5294	276.14664
627.8811	282.58312
628.2327	301.89254
628.5844	263.2737
628.9359	236.94267
629.2874	267.36963
629.6389	277.90205
629.9904	286.09392
630.3417	252.15615
630.6931	244.54941
631.0444	288.43446
631.3956	258.59263
631.7468	273.22097
632.0979	257.42236
632.449	234.017
632.8001	267.36963
633.1511	267.95477
633.5021	225.23999
633.853	281.41285
634.2038	267.95477
634.5546	287.84932
634.9054	248.06021
635.2561	225.82513
635.6068	267.95477
635.9574	269.12504
636.308	265.61423
636.6585	250.40075
637.009	260.93316
637.3595	250.40075
637.7098	280.24258
638.0602	273.80611
638.4105	288.43446
638.7607	260.93316
639.1109	262.68856
639.4611	280.24258
639.8112	271.46557
640.1612	259.76289
640.5113	239.86834
640.8612	254.49669
641.2111	274.97638
641.561	267.36963
641.9108	267.36963
642.2606	257.42236
642.6103	263.2737
642.96	247.47508
643.3096	283.16825
643.6592	288.43446
644.0088	287.26419
644.3582	241.03861
644.7077	262.10343
645.0571	250.98588
645.4064	265.0291
645.7557	283.75338
646.105	253.91155
646.4542	279.07231
646.8033	248.64535
647.1524	265.61423
647.5015	262.10343
647.8505	243.96428
648.1995	239.86834
648.5484	269.71017
648.8973	284.92365
649.2461	279.07231
649.5949	262.10343
649.9436	226.99539
650.2923	260.34803
650.6409	270.88044
650.9895	268.5399
651.338	230.5062
651.6865	297.7966
652.0349	291.94526
652.3833	238.69807
652.7317	244.54941
653.08	252.74129
653.4282	256.83722
653.7764	235.18727
654.1246	267.95477
654.4727	271.46557
654.8208	298.38173
655.1688	239.28321
655.5167	273.80611
655.8647	255.66696
656.2125	269.71017
656.5603	273.22097
656.9081	251.57102
657.2558	312.42495
657.6035	278.48718
657.9512	252.15615
658.2987	259.76289
658.6463	255.66696
658.9938	283.75338
659.3412	278.48718
659.6886	268.5399
660.0359	271.46557
660.3832	262.68856
660.7305	284.92365
661.0777	265.0291
661.4248	276.14664
661.7719	233.43187
662.119	269.12504
662.466	255.66696
662.813	267.95477
663.1599	260.34803
663.5067	253.32642
663.8535	278.48718
664.2003	268.5399
664.547	284.92365
664.8937	254.49669
665.2403	249.23048
665.5869	272.05071
665.9334	300.72227
666.2799	243.96428
666.6264	297.7966
666.9727	234.60213
667.3191	300.72227
667.6654	276.14664
668.0116	250.40075
668.3578	249.81562
668.7039	244.54941
669.05	250.98588
669.3961	295.45606
669.7421	273.22097
670.088	256.25209
670.4339	253.32642
670.7798	261.5183
671.1256	256.25209
671.4714	269.71017
671.8171	271.46557
672.1628	290.77499
672.5084	289.60472
672.8539	263.2737
673.1995	273.80611
673.5449	272.63584
673.8904	278.48718
674.2357	270.2953
674.5811	270.88044
674.9263	259.17776
675.2716	289.60472
675.6167	253.91155
675.9619	260.93316
676.307	263.85883
676.652	258.59263
676.997	244.54941
677.3419	255.08182
677.6868	280.24258
678.0317	286.67905
678.3765	252.74129
678.7212	255.08182
679.0659	261.5183
679.4106	262.68856
679.7552	253.91155
680.0997	243.96428
680.4443	262.10343
680.7887	285.50879
681.1331	280.24258
681.4775	291.36013
681.8218	230.5062
682.1661	275.56151
682.5103	245.71968
682.8545	262.68856
683.1986	230.5062
683.5426	247.47508
683.8867	287.84932
684.2306	285.50879
684.5746	264.44396
684.9185	269.12504
685.2623	267.36963
685.6061	277.90205
685.9498	252.74129
686.2935	283.75338
686.6371	297.7966
686.9807	226.41026
687.3243	275.56151
687.6678	241.62374
688.0112	285.50879
688.3546	260.93316
688.6979	278.48718
689.0412	252.15615
689.3845	248.06021
689.7277	241.62374
690.0708	272.63584
690.4139	269.71017
690.757	255.66696
691.1	269.12504
691.443	279.65745
691.7859	246.30481
692.1287	241.62374
692.4716	277.90205
692.8143	267.36963
693.157	259.17776
693.4997	256.83722
693.8423	255.66696
694.1849	262.68856
694.5274	243.96428
694.8699	272.05071
695.2123	310.08441
695.5547	269.71017
695.897	227.58053
696.2393	285.50879
696.5815	265.0291
696.9237	279.07231
697.2658	238.69807
697.6079	265.0291
697.95	280.82771
698.292	280.82771
698.6339	265.61423
698.9758	259.17776
699.3176	253.91155
699.6594	246.88995
700.0012	245.71968
700.3429	265.0291
700.6845	250.40075
701.0261	217.04812
701.3677	263.85883
701.7092	262.10343
702.0506	250.40075
702.392	255.66696
702.7334	273.80611
703.0747	277.90205
703.4159	220.55892
703.7571	269.71017
704.0983	234.017
704.4394	282.58312
704.7805	242.20888
705.1215	262.68856
705.4624	266.19937
705.8034	250.40075
706.1442	254.49669
706.485	236.94267
706.8258	264.44396
707.1665	253.91155
707.5072	255.66696
707.8478	272.63584
708.1884	273.22097
708.5289	236.94267
708.8694	257.42236
709.2098	258.00749
709.5502	245.71968
709.8905	255.66696
710.2308	287.84932
710.571	262.10343
710.9112	280.24258
711.2513	249.23048
711.5914	256.25209
711.9315	264.44396
712.2714	268.5399
712.6114	255.08182
712.9513	263.85883
713.2911	255.66696
713.6309	266.19937
713.9706	267.36963
714.3103	264.44396
714.65	278.48718
714.9896	286.09392
715.3291	246.30481
715.6686	251.57102
716.0081	255.66696
716.3475	255.66696
716.6868	265.61423
717.0261	249.23048
717.3654	215.87785
717.7046	254.49669
718.0437	269.12504
718.3828	257.42236
718.7219	272.63584
719.0609	253.32642
719.3998	229.92106
719.7387	238.11294
720.0776	249.23048
720.4164	267.36963
720.7552	269.71017
721.0939	248.64535
721.4325	267.36963
721.7711	228.16566
722.1097	258.00749
722.4482	239.28321
722.7867	265.0291
723.1251	288.43446
723.4635	259.17776
723.8018	239.28321
724.14	244.54941
724.4783	257.42236
724.8164	270.88044
725.1546	241.62374
725.4926	257.42236
725.8306	258.00749
726.1686	256.83722
726.5065	283.16825
726.8444	252.74129
727.1822	283.16825
727.52	276.14664
727.8577	238.11294
728.1954	259.76289
728.533	265.61423
728.8706	243.37914
729.2081	270.88044
729.5456	263.2737
729.883	260.93316
730.2204	260.34803
730.5578	238.11294
730.895	238.69807
731.2323	272.05071
731.5695	270.88044
731.9066	269.12504
732.2437	238.11294
732.5807	233.43187
732.9177	249.81562
733.2546	245.13455
733.5915	301.3074
733.9283	272.05071
734.2651	265.61423
734.6019	258.59263
734.9386	248.06021
735.2752	232.2616
735.6118	267.36963
735.9483	280.24258
736.2848	263.85883
736.6213	267.36963
736.9576	289.60472
737.294	286.67905
737.6303	293.11553
737.9665	260.34803
738.3027	266.7845
738.6389	279.07231
738.975	259.17776
739.311	250.40075
739.647	270.88044
739.9829	275.56151
740.3188	230.5062
740.6547	283.16825
740.9905	238.69807
741.3262	266.19937
741.6619	265.0291
741.9976	249.81562
742.3332	286.09392
742.6687	270.2953
743.0042	272.63584
743.3397	239.28321
743.6751	272.63584
744.0104	256.25209
744.3457	267.36963
744.681	295.45606
745.0162	246.30481
745.3513	243.96428
745.6864	286.09392
746.0215	275.56151
746.3565	269.71017
746.6914	255.66696
747.0263	269.12504
747.3612	265.0291
747.696	310.08441
748.0307	259.17776
748.3654	270.88044
748.7001	256.83722
749.0347	228.16566
749.3692	269.12504
749.7037	277.90205
750.0382	254.49669
750.3726	263.85883
750.707	229.33593
751.0413	252.74129
751.3755	259.76289
751.7097	287.84932
752.0439	251.57102
752.378	272.63584
752.712	253.32642
753.046	248.06021
753.38	260.34803
753.7139	235.18727
754.0478	249.23048
754.3816	246.88995
754.7153	251.57102
755.049	237.5278
755.3827	248.06021
755.7163	243.96428
756.0498	227.58053
756.3833	288.43446
756.7168	269.12504
757.0502	253.91155
757.3836	246.30481
757.7169	245.13455
758.0501	258.00749
758.3833	273.80611
758.7165	272.63584
759.0496	288.43446
759.3827	234.017
759.7157	281.41285
760.0486	264.44396
760.3815	273.22097
760.7144	263.85883
761.0472	271.46557
761.3799	254.49669
761.7126	275.56151
762.0453	283.75338
762.3779	260.34803
762.7105	258.00749
763.043	270.2953
763.3754	266.7845
763.7078	264.44396
764.0402	290.18986
764.3725	266.7845
764.7047	261.5183
765.037	263.85883
765.3691	287.84932
765.7012	240.45347
766.0333	234.60213
766.3653	276.73178
766.6972	260.93316
767.0291	250.40075
767.361	232.84673
767.6928	258.59263
768.0245	266.7845
768.3562	273.80611
768.6879	241.62374
769.0195	257.42236
769.3511	265.0291
769.6826	283.75338
770.014	269.12504
770.3454	274.39124
770.6768	263.85883
771.0081	259.76289
771.3393	273.22097
771.6705	271.46557
772.0017	266.19937
772.3328	272.05071
772.6638	263.85883
772.9948	276.14664
773.3258	280.82771
773.6567	284.33852
773.9875	272.63584
774.3183	294.87093
774.6491	253.32642
774.9797	273.22097
775.3104	272.63584
775.641	264.44396
775.9715	270.2953
776.302	262.10343
776.6325	276.73178
776.9629	250.98588
777.2932	280.24258
777.6235	238.69807
777.9538	250.40075
778.2839	263.2737
778.6141	226.41026
778.9442	244.54941
779.2742	247.47508
779.6042	266.19937
779.9342	246.88995
780.264	280.82771
780.5939	266.7845
780.9237	239.28321
781.2534	255.08182
781.5831	249.81562
781.9127	246.30481
782.2423	267.36963
782.5719	250.40075
782.9014	257.42236
783.2308	248.06021
783.5602	270.88044
783.8895	300.72227
784.2188	264.44396
784.548	281.41285
784.8772	258.00749
785.2063	252.74129
785.5354	241.62374
785.8645	267.36963
786.1934	293.70066
786.5224	252.15615
786.8512	273.80611
787.1801	243.96428
787.5088	274.97638
787.8376	246.30481
788.1663	289.60472
788.4949	244.54941
788.8235	270.2953
789.152	269.12504
789.4805	265.61423
789.8089	268.5399
790.1372	293.11553
790.4656	253.32642
790.7938	265.61423
791.1221	276.73178
791.4502	279.65745
791.7783	256.83722
792.1064	243.96428
792.4344	269.71017
792.7624	249.23048
793.0903	236.35754
793.4182	262.68856
793.746	240.45347
794.0738	249.81562
794.4015	262.68856
794.7291	250.98588
795.0567	256.83722
795.3843	256.25209
795.7118	307.15874
796.0393	265.0291
796.3667	276.14664
796.694	236.94267
797.0213	255.08182
797.3486	250.40075
797.6758	270.2953
798.0029	270.88044
798.3301	238.11294
798.6571	290.77499
798.9841	278.48718
799.3111	291.36013
799.638	277.90205
799.9648	253.32642
800.2916	240.45347
800.6183	241.62374
800.945	258.00749
801.2717	256.25209
801.5983	253.91155
801.9248	277.90205
802.2513	262.68856
802.5777	231.09133
802.9041	249.23048
803.2305	249.23048
803.5568	265.0291
803.883	303.64794
804.2092	273.80611
804.5353	263.85883
804.8614	260.93316
805.1874	274.39124
805.5134	266.19937
805.8393	272.63584
806.1652	222.89946
806.491	258.59263
806.8168	270.88044
807.1425	276.73178
807.4682	250.98588
807.7938	261.5183
808.1194	262.68856
808.4449	274.97638
808.7704	269.12504
809.0958	270.88044
809.4212	249.23048
809.7465	252.15615
810.0718	276.14664
810.397	239.28321
810.7221	259.17776
811.0473	221.14405
811.3723	256.83722
811.6973	272.63584
812.0223	292.53039
812.3472	266.7845
812.672	263.2737
812.9968	279.07231
813.3216	274.39124
813.6463	261.5183
813.9709	262.68856
814.2955	259.76289
814.6201	260.93316
814.9446	262.10343
815.269	279.65745
815.5934	281.99798
815.9178	276.14664
816.2421	237.5278
816.5663	259.17776
816.8905	261.5183
817.2146	228.7508
817.5387	268.5399
817.8627	252.74129
818.1867	247.47508
818.5107	287.84932
818.8345	258.00749
819.1584	249.81562
819.4822	263.85883
819.8059	212.36705
820.1296	281.99798
820.4532	281.99798
820.7767	290.18986
821.1003	269.71017
821.4237	256.25209
821.7472	267.95477
822.0705	302.47767
822.3938	300.13713
822.7171	300.72227
823.0403	280.24258
823.3635	239.86834
823.6866	241.03861
824.0096	267.95477
824.3326	255.66696
824.6556	289.01959
824.9785	242.20888
825.3014	252.74129
825.6242	272.05071
825.9469	242.79401
826.2696	249.23048
826.5922	260.93316
826.9148	248.06021
827.2374	247.47508
827.5599	286.09392
827.8823	248.06021
828.2047	286.09392
828.527	268.5399
828.8493	269.71017
829.1716	256.25209
829.4937	263.2737
829.8159	276.14664
830.1379	259.17776
830.46	249.23048
830.7819	274.97638
831.1039	260.34803
831.4257	243.96428
831.7476	266.19937
832.0693	260.93316
832.391	246.88995
832.7127	240.45347
833.0343	284.92365
833.3559	260.34803
833.6774	267.95477
833.9988	293.11553
834.3202	272.63584
834.6416	241.03861
834.9629	244.54941
835.2842	266.7845
835.6054	248.06021
835.9265	265.61423
836.2476	266.7845
836.5686	266.7845
836.8896	258.59263
837.2106	268.5399
837.5315	258.59263
837.8523	263.85883
838.1731	273.80611
838.4938	255.66696
838.8145	251.57102
839.1351	280.24258
839.4557	255.66696
839.7762	269.71017
840.0967	269.12504
840.4171	262.10343
840.7375	264.44396
841.0578	293.11553
841.3781	245.13455
841.6983	247.47508
842.0185	250.98588
842.3386	263.2737
842.6586	265.61423
842.9786	231.09133
843.2986	242.79401
843.6185	262.68856
843.9383	228.16566
844.2581	246.30481
844.5779	277.90205
844.8976	262.10343
845.2172	277.90205
845.5368	270.2953
845.8563	253.32642
846.1758	266.7845
846.4953	241.62374
846.8147	225.23999
847.134	239.28321
847.4533	239.86834
847.7725	279.65745
848.0917	267.36963
848.4108	235.7724
848.7299	255.66696
849.0489	248.64535
849.3678	272.63584
849.6868	241.03861
850.0056	255.08182
850.3244	258.59263
850.6432	279.07231
850.9619	271.46557
851.2805	274.97638
851.5991	308.32901
851.9177	280.24258
852.2362	243.96428
852.5546	252.74129
852.873	247.47508
853.1914	243.96428
853.5097	261.5183
853.8279	221.72919
854.1461	269.12504
854.4642	257.42236
854.7823	292.53039
855.1003	259.76289
855.4183	256.83722
855.7362	260.34803
856.0541	263.2737
856.3719	253.91155
856.6897	253.32642
857.0074	272.63584
857.325	251.57102
857.6427	256.83722
857.9602	225.82513
858.2777	270.88044
858.5952	255.66696
858.9126	266.7845
859.2299	270.88044
859.5472	249.23048
859.8645	250.40075
860.1816	251.57102
860.4988	246.88995
860.8159	242.20888
861.1329	259.76289
861.4499	265.0291
861.7668	290.18986
862.0837	280.82771
862.4005	273.22097
862.7173	286.09392
863.034	256.25209
863.3507	276.14664
863.6673	243.96428
863.9839	252.74129
864.3004	267.95477
864.6168	297.21146
864.9332	256.25209
865.2496	281.99798
865.5659	291.36013
865.8821	247.47508
866.1983	266.19937
866.5145	267.95477
866.8306	239.86834
867.1466	265.61423
867.4626	273.80611
867.7785	276.14664
868.0944	294.87093
868.4102	260.34803
868.726	259.76289
869.0417	259.76289
869.3574	287.26419
869.673	250.98588
869.9886	298.96687
870.3041	267.95477
870.6195	276.14664
870.935	274.97638
871.2503	255.08182
871.5656	248.64535
871.8809	255.66696
872.1961	256.83722
872.5112	270.88044
872.8263	269.71017
873.1413	252.74129
873.4563	246.30481
873.7713	254.49669
874.0861	242.79401
874.401	276.14664
874.7157	290.77499
875.0305	230.5062
875.3451	249.23048
875.6597	252.15615
875.9743	256.25209
876.2888	259.17776
876.6033	302.47767
876.9177	267.36963
877.232	247.47508
877.5463	258.00749
877.8606	275.56151
878.1748	212.36705
878.4889	264.44396
878.803	231.67646
879.1171	253.91155
879.431	268.5399
879.745	255.08182
880.0589	274.97638
880.3727	238.11294
880.6865	286.09392
881.0002	287.84932
881.3138	269.71017
881.6275	239.86834
881.941	272.63584
882.2545	259.17776
882.568	255.08182
882.8814	253.91155
883.1947	256.25209
883.508	260.93316
883.8213	245.13455
884.1345	274.39124
884.4476	262.68856
884.7607	250.40075
885.0737	298.96687
885.3867	250.40075
885.6996	289.60472
886.0125	253.32642
886.3253	279.65745
886.6381	259.17776
886.9508	257.42236
887.2635	243.96428
887.5761	278.48718
887.8886	257.42236
888.2012	256.83722
888.5136	245.13455
888.826	269.12504
889.1383	282.58312
889.4506	234.60213
889.7629	272.05071
890.0751	254.49669
890.3872	279.65745
890.6993	260.34803
891.0113	277.31691
891.3233	285.50879
891.6352	241.03861
891.9471	280.82771
892.2589	283.16825
892.5706	277.31691
892.8823	276.73178
893.194	289.60472
893.5056	294.87093
893.8171	246.30481
894.1286	242.79401
894.4401	254.49669
894.7515	263.85883
895.0628	242.20888
895.3741	255.08182
895.6853	264.44396
895.9965	254.49669
896.3076	269.12504
896.6187	260.93316
896.9297	252.15615
897.2407	259.17776
897.5516	268.5399
897.8624	274.97638
898.1732	263.85883
898.484	238.69807
898.7947	253.91155
899.1053	234.017
899.4159	251.57102
899.7264	239.86834
900.0369	236.94267
900.3474	244.54941
900.6577	271.46557
900.9681	265.61423
901.2783	273.22097
901.5886	269.12504
901.8987	253.32642
902.2088	254.49669
902.5189	290.18986
902.8289	272.63584
903.1388	279.65745
903.4487	229.33593
903.7586	287.26419
904.0684	253.32642
904.3781	284.92365
904.6878	290.18986
904.9974	249.23048
905.307	263.2737
905.6165	248.06021
905.926	270.88044
906.2354	249.23048
906.5448	263.2737
906.8541	260.34803
907.1633	266.19937
907.4725	257.42236
907.7817	270.88044
908.0908	243.96428
908.3998	248.64535
908.7088	241.62374
909.0178	272.63584
909.3266	245.13455
909.6355	266.19937
909.9442	276.73178
910.253	258.59263
910.5616	267.95477
910.8702	262.10343
911.1788	267.95477
911.4873	319.44655
911.7958	246.30481
912.1042	276.14664
912.4125	235.7724
912.7208	265.61423
913.029	281.41285
913.3372	284.33852
913.6454	274.97638
913.9534	270.2953
914.2615	253.32642
914.5694	284.33852
914.8774	280.82771
915.1852	256.25209
915.493	266.19937
915.8008	268.5399
916.1085	290.18986
916.4161	255.66696
916.7237	265.0291
917.0313	253.91155
917.3388	255.66696
917.6462	245.13455
917.9536	274.39124
918.2609	261.5183
918.5682	262.10343
918.8754	264.44396
919.1826	250.98588
919.4897	277.31691
919.7967	280.24258
920.1037	258.00749
920.4107	273.22097
920.7176	293.70066
921.0244	241.03861
921.3312	271.46557
921.6379	256.83722
921.9446	257.42236
922.2513	269.71017
922.5578	274.39124
922.8644	277.90205
923.1708	238.69807
923.4772	258.00749
923.7836	282.58312
924.0899	269.12504
924.3961	262.10343
924.7023	251.57102
925.0085	273.80611
925.3146	273.80611
925.6206	276.73178
925.9266	263.85883
926.2325	245.13455
926.5384	267.95477
926.8442	260.93316
927.15	266.7845
927.4557	258.00749
927.7613	276.73178
928.067	243.96428
928.3725	270.2953
928.678	267.36963
928.9834	280.24258
929.2888	279.65745
929.5942	271.46557
929.8994	259.17776
930.2047	239.86834
930.5098	267.36963
930.815	254.49669
931.12	264.44396
931.425	242.20888
931.73	248.06021
932.0349	248.06021
932.3397	258.00749
932.6445	250.98588
932.9493	238.11294
933.254	274.97638
933.5586	268.5399
933.8632	267.36963
934.1677	285.50879
934.4722	237.5278
934.7766	257.42236
935.0809	267.36963
935.3852	292.53039
935.6895	263.2737
935.9937	300.13713
936.2978	257.42236
936.6019	235.7724
936.906	234.017
937.2099	279.65745
937.5139	260.34803
937.8177	263.85883
938.1216	279.65745
938.4253	225.82513
938.729	240.45347
939.0327	256.25209
939.3363	282.58312
939.6398	245.13455
939.9433	275.56151
940.2468	273.22097
940.5501	276.73178
940.8535	286.09392
941.1568	260.93316
941.46	257.42236
941.7631	270.88044
942.0663	223.48459
942.3693	241.03861
942.6723	248.06021
942.9753	245.13455
943.2782	256.25209
943.581	241.03861
943.8838	288.43446
944.1865	268.5399
944.4892	269.71017
944.7918	255.08182
945.0944	262.68856
945.3969	249.23048
945.6994	241.62374
946.0018	242.79401
946.3041	279.65745
946.6064	272.63584
946.9087	245.71968
947.2109	225.23999
947.513	279.07231
947.8151	265.61423
948.1171	267.95477
948.4191	254.49669
948.721	250.98588
949.0229	239.28321
949.3247	260.34803
949.6264	259.76289
949.9281	256.83722
950.2298	276.73178
950.5314	279.65745
950.8329	265.61423
951.1344	245.13455
951.4358	228.7508
951.7372	238.69807
952.0385	267.36963
952.3397	268.5399
952.641	284.92365
952.9421	207.68597
953.2432	276.73178
953.5442	252.74129
953.8452	249.81562
954.1462	249.81562
954.4471	265.61423
954.7479	262.68856
955.0486	256.83722
955.3494	268.5399
955.65	295.45606
955.9506	272.63584
956.2512	277.90205
956.5517	266.19937
956.8521	291.94526
957.1525	242.79401
957.4528	270.88044
957.7531	242.79401
958.0534	281.41285
958.3535	269.12504
958.6536	263.2737
958.9537	272.63584
959.2537	228.7508
959.5537	256.83722
959.8535	252.15615
960.1534	249.81562
960.4532	266.7845
960.7529	279.65745
961.0526	245.13455
961.3522	274.97638
961.6518	247.47508
961.9513	260.34803
962.2507	266.19937
962.5501	256.25209
962.8495	273.80611
963.1488	263.2737
963.448	244.54941
963.7472	240.45347
964.0463	243.37914
964.3454	279.07231
964.6444	259.17776
964.9434	252.15615
965.2423	284.92365
965.5412	291.36013
965.84	250.40075
966.1387	258.59263
966.4374	261.5183
966.736	265.61423
967.0346	300.72227
967.3331	266.7845
967.6316	258.59263
967.93	291.36013
968.2284	247.47508
968.5267	246.30481
968.8249	288.43446
969.1231	267.36963
969.4213	270.2953
969.7194	272.05071
970.0174	289.01959
970.3154	276.14664
970.6133	293.11553
970.9111	258.59263
971.2089	271.46557
971.5067	235.18727
971.8044	279.65745
972.102	258.59263
972.3996	230.5062
972.6972	245.71968
972.9947	249.23048
973.2921	253.91155
973.5894	274.97638
973.8868	272.05071
974.184	238.69807
974.4812	278.48718
974.7784	268.5399
975.0755	243.37914
975.3725	266.7845
975.6695	266.7845
975.9664	293.70066
976.2633	265.0291
976.5601	303.0628
976.8569	252.74129
977.1536	238.69807
977.4502	259.76289
977.7468	252.74129
978.0434	250.40075
978.3399	288.43446
978.6363	267.95477
978.9327	263.2737
979.229	297.7966
979.5253	255.66696
979.8215	256.83722
980.1176	235.18727
980.4137	242.79401
980.7098	271.46557
981.0058	257.42236
981.3017	279.07231
981.5976	299.552
981.8934	258.00749
982.1892	241.03861
982.4849	230.5062
982.7805	255.66696
983.0761	260.34803
983.3717	243.96428
983.6672	275.56151
983.9626	281.99798
984.258	260.93316
984.5533	238.11294
984.8486	266.19937
985.1438	259.76289
985.439	253.32642
985.7341	265.0291
986.0291	276.14664
986.3241	244.54941
986.619	252.74129
986.9139	259.17776
987.2087	320.03169
987.5035	260.34803
987.7982	248.06021
988.0929	281.41285
988.3875	238.69807
988.6821	275.56151
988.9765	280.82771
989.271	277.90205
989.5654	231.67646
989.8597	266.7845
990.154	269.12504
990.4482	270.88044
990.7423	256.83722
991.0365	255.08182
991.3305	241.62374
991.6245	256.83722
991.9184	248.64535
992.2123	235.18727
992.5061	279.65745
992.7999	266.19937
993.0936	263.2737
993.3873	275.56151
993.6809	260.34803
993.9745	272.05071
994.2679	239.28321
994.5614	260.34803
994.8548	280.82771
995.1481	286.09392
995.4414	269.71017
995.7346	265.0291
996.0277	235.7724
996.3208	252.15615
996.6139	283.16825
996.9069	280.24258
997.1998	279.65745
997.4927	247.47508
997.7855	275.56151
998.0783	248.64535
998.371	252.74129
998.6637	291.36013
998.9563	263.85883
999.2488	271.46557
999.5413	251.57102
999.8338	267.36963
1000.1261	253.91155
1000.4185	276.73178
1000.7107	274.39124
1001.0029	267.95477
1001.2951	229.33593
1001.5872	303.0628
1001.8792	253.32642
1002.1712	284.92365
1002.4632	232.84673
1002.755	263.2737
1003.0469	279.65745
1003.3386	270.2953
1003.6303	280.24258
1003.922	255.08182
1004.2136	272.05071
1004.5051	269.71017
1004.7966	250.98588
1005.0881	269.12504
1005.3794	280.24258
1005.6708	281.99798
1005.962	253.91155
1006.2532	243.96428
1006.5444	246.88995
1006.8355	233.43187
1007.1265	269.71017
1007.4175	256.25209
1007.7084	259.76289
1007.9993	236.35754
1008.2901	260.34803
1008.5809	236.35754
1008.8716	230.5062
1009.1622	275.56151
1009.4528	264.44396
1009.7434	252.15615
1010.0338	246.88995
1010.3243	270.2953
1010.6146	282.58312
1010.9049	234.60213
1011.1952	260.34803
1011.4854	269.71017
1011.7755	259.17776
1012.0656	249.23048
1012.3557	268.5399
1012.6456	262.68856
1012.9355	239.86834
1013.2254	270.2953
1013.5152	252.15615
1013.805	215.87785
1014.0947	257.42236
1014.3843	291.36013
1014.6739	253.91155
1014.9634	273.80611
1015.2529	279.07231
1015.5423	235.18727
1015.8317	262.10343
1016.121	255.08182
1016.4102	245.13455
1016.6994	280.24258
1016.9885	233.43187
1017.2776	287.26419
1017.5666	258.00749
1017.8556	280.24258
1018.1445	239.86834
1018.4333	271.46557
1018.7221	269.71017
1019.0109	264.44396
1019.2996	232.2616
1019.5882	293.11553
1019.8768	265.0291
1020.1653	287.26419
1020.4537	262.10343
1020.7421	277.90205
1021.0305	270.2953
1021.3188	258.00749
1021.607	238.69807
1021.8952	267.95477
1022.1833	273.80611
1022.4714	287.84932
1022.7594	268.5399
1023.0473	259.17776
1023.3352	279.65745
1023.6231	238.11294
1023.9108	257.42236
1024.1986	224.65486
1024.4862	277.31691
1024.7738	272.63584
1025.0614	243.96428
1025.3489	246.30481
1025.6363	267.95477
1025.9237	239.28321
1026.2111	236.35754
1026.4983	242.20888
1026.7855	269.71017
1027.0727	266.19937
1027.3598	298.38173
1027.6469	268.5399
1027.9339	245.71968
1028.2208	261.5183
1028.5077	244.54941
1028.7945	293.11553
1029.0813	262.68856
1029.368	245.13455
1029.6546	284.92365
1029.9412	264.44396
1030.2278	238.11294
1030.5142	297.7966
1030.8007	266.19937
1031.087	255.08182
1031.3733	273.22097
1031.6596	262.10343
1031.9458	260.34803
1032.232	266.7845
1032.518	267.95477
1032.8041	267.95477
1033.09	267.95477
